reward_today,future_reward,delay,trials.thisRepN,trials.thisTrialN,trials.thisN,trials.thisIndex,thisRow.t,notes,trial.started,fixation.started,text.started,key_resp.started,trial.stopped,key_resp.keys,key_resp.rt,key_resp.duration,fixation.stopped,participant,session,date,expName,psychopyVersion,frameRate,expStart,
40,55,62,0,0,0,3,0.12237090000417084,,0.008970299997599795,0.12237090000417084,1.0107232000154909,1.0107232000154909,1.066391600004863,l,0.044496399990748614,None,,437829,001,2024-11-18_11h17.35.035,Delay Discounting Task,2024.1.5,None,2024-11-18 11h17.40.218195 +0530,
15,35,13,0,1,1,1,1.0782946000108495,,1.067418999999063,1.0782946000108495,2.0770040999923367,2.0770040999923367,2.16388750000624,l,0.07072389998938888,None,2.0937346999999136,437829,001,2024-11-18_11h17.35.035,Delay Discounting Task,2024.1.5,None,2024-11-18 11h17.40.218195 +0530,
27,50,21,0,2,2,2,2.176628899993375,,2.1650836000044364,2.176628899993375,3.176716399990255,3.176716399990255,3.229449600010412,l,0.044931800017366186,None,3.176716399990255,437829,001,2024-11-18_11h17.35.035,Delay Discounting Task,2024.1.5,None,2024-11-18 11h17.40.218195 +0530,
67,75,119,0,3,3,5,3.243353700003354,,3.230467499990482,3.243353700003354,4.243421599996509,4.243421599996509,4.595998000004329,l,0.3506055000179913,None,4.243421599996509,437829,001,2024-11-18_11h17.35.035,Delay Discounting Task,2024.1.5,None,2024-11-18 11h17.40.218195 +0530,
78,80,162,0,4,4,6,4.6094357999973,,4.596738099993672,4.6094357999973,5.609710399992764,5.609710399992764,5.6966016000078525,t,0.08376049998332746,None,5.609710399992764,437829,001,2024-11-18_11h17.35.035,Delay Discounting Task,2024.1.5,None,2024-11-18 11h17.40.218195 +0530,
11,30,7,0,5,5,0,5.709344600007171,,5.697547099989606,5.709344600007171,6.709544700017432,6.709544700017432,6.760982800013153,l,0.0477742999792099,None,6.709544700017432,437829,001,2024-11-18_11h17.35.035,Delay Discounting Task,2024.1.5,None,2024-11-18 11h17.40.218195 +0530,
49,60,89,0,6,6,4,6.775892200006638,,6.7617257999954745,6.775892200006638,7.775599399989005,7.775599399989005,7.862489299994195,t,0.08203829999547452,None,7.775599399989005,437829,001,2024-11-18_11h17.35.035,Delay Discounting Task,2024.1.5,None,2024-11-18 11h17.40.218195 +0530,
40,55,62,1,0,7,3,7.875621200015303,,7.863496700010728,7.875621200015303,8.87558250001166,8.87558250001166,9.178466400015168,t,0.2996354000060819,None,8.87558250001166,437829,001,2024-11-18_11h17.35.035,Delay Discounting Task,2024.1.5,None,2024-11-18 11h17.40.218195 +0530,
78,80,162,1,1,8,6,9.19212819999666,,9.179377099993872,9.19212819999666,10.192195700015873,10.192195700015873,10.2612546000164,t,0.053929699992295355,None,10.192195700015873,437829,001,2024-11-18_11h17.35.035,Delay Discounting Task,2024.1.5,None,2024-11-18 11h17.40.218195 +0530,
67,75,119,1,2,9,5,10.275007699994603,,10.262165299995104,10.275007699994603,11.274984699994093,11.274984699994093,11.777289099991322,t,0.48949269999866374,None,11.274984699994093,437829,001,2024-11-18_11h17.35.035,Delay Discounting Task,2024.1.5,None,2024-11-18 11h17.40.218195 +0530,
11,30,7,1,3,10,0,11.791608100000303,,11.778241499996511,11.791608100000303,12.791592199995648,12.791592199995648,12.81029860000126,t,0.009936600021319464,None,12.791592199995648,437829,001,2024-11-18_11h17.35.035,Delay Discounting Task,2024.1.5,None,2024-11-18 11h17.40.218195 +0530,
15,35,13,1,4,11,1,12.824934300006134,,12.81191590000526,12.824934300006134,13.824509400001261,13.824509400001261,13.860313000011956,t,0.01857619997463189,None,13.824509400001261,437829,001,2024-11-18_11h17.35.035,Delay Discounting Task,2024.1.5,None,2024-11-18 11h17.40.218195 +0530,
49,60,89,1,5,12,4,13.874146499991184,,13.861471400014125,13.874146499991184,14.874322399991797,14.874322399991797,15.05926609999733,t,0.17118659999687225,None,14.874322399991797,437829,001,2024-11-18_11h17.35.035,Delay Discounting Task,2024.1.5,None,2024-11-18 11h17.40.218195 +0530,
27,50,21,1,6,13,2,15.073936800006777,,15.060736200015526,15.073936800006777,16.07397480000509,16.07397480000509,16.12628749999567,t,0.04850050000823103,None,16.07397480000509,437829,001,2024-11-18_11h17.35.035,Delay Discounting Task,2024.1.5,None,2024-11-18 11h17.40.218195 +0530,
27,50,21,2,0,14,2,16.140920300007565,,16.12716219999129,16.140920300007565,17.140576900012093,17.140576900012093,17.55939129999024,t,0.40486549999332055,None,17.140576900012093,437829,001,2024-11-18_11h17.35.035,Delay Discounting Task,2024.1.5,None,2024-11-18 11h17.40.218195 +0530,
67,75,119,2,1,15,5,17.5732699999935,,17.560424399998737,17.5732699999935,18.57326160001685,18.57326160001685,19.008829700003844,l,0.41986480000196025,None,18.57326160001685,437829,001,2024-11-18_11h17.35.035,Delay Discounting Task,2024.1.5,None,2024-11-18 11h17.40.218195 +0530,
11,30,7,2,2,16,0,19.02383550000377,,19.009815600002185,19.02383550000377,20.02316380001139,20.02316380001139,20.257899499993073,l,0.2182223999989219,None,20.02316380001139,437829,001,2024-11-18_11h17.35.035,Delay Discounting Task,2024.1.5,None,2024-11-18 11h17.40.218195 +0530,
78,80,162,2,3,17,6,20.273105200001737,,20.258814400003757,20.273105200001737,21.272708400007105,21.272708400007105,21.692745400010608,l,0.41660440000123344,None,21.272708400007105,437829,001,2024-11-18_11h17.35.035,Delay Discounting Task,2024.1.5,None,2024-11-18 11h17.40.218195 +0530,
49,60,89,2,4,18,4,21.70611580001423,,21.693664599995827,21.70611580001423,22.706139799993252,22.706139799993252,23.00808820000384,l,0.29026820001308806,None,22.706139799993252,437829,001,2024-11-18_11h17.35.035,Delay Discounting Task,2024.1.5,None,2024-11-18 11h17.40.218195 +0530,
15,35,13,2,5,19,1,23.02824350001174,,23.00911690000794,23.02824350001174,24.022543700004462,24.022543700004462,24.32529110001633,l,0.29267450000043027,None,24.03941689999192,437829,001,2024-11-18_11h17.35.035,Delay Discounting Task,2024.1.5,None,2024-11-18 11h17.40.218195 +0530,
40,55,62,2,6,20,3,24.338821100012865,,24.32630240000435,24.338821100012865,25.338927700009663,25.338927700009663,25.491567499993835,t,0.1496997999784071,None,25.338927700009663,437829,001,2024-11-18_11h17.35.035,Delay Discounting Task,2024.1.5,None,2024-11-18 11h17.40.218195 +0530,
78,80,162,3,0,21,6,25.505091800005175,,25.49244170001475,25.505091800005175,26.50520620000316,26.50520620000316,26.80769109999528,t,0.2851836999761872,None,26.50520620000316,437829,001,2024-11-18_11h17.35.035,Delay Discounting Task,2024.1.5,None,2024-11-18 11h17.40.218195 +0530,
15,35,13,3,1,22,1,26.821632900013356,,26.808540700003505,26.821632900013356,27.821721100015566,27.821721100015566,27.97409719999996,t,0.14497059999848716,None,27.821721100015566,437829,001,2024-11-18_11h17.35.035,Delay Discounting Task,2024.1.5,None,2024-11-18 11h17.40.218195 +0530,
11,30,7,3,2,23,0,27.98820620001061,,27.974884700000985,27.98820620001061,28.98801510001067,28.98801510001067,30.307906100002583,l,1.306163600005675,None,28.98801510001067,437829,001,2024-11-18_11h17.35.035,Delay Discounting Task,2024.1.5,None,2024-11-18 11h17.40.218195 +0530,
67,75,119,3,3,24,5,30.32077879999997,,30.309639200015226,30.32077879999997,31.320896899997024,31.320896899997024,32.64038029999938,l,1.3042219000053592,None,31.320896899997024,437829,001,2024-11-18_11h17.35.035,Delay Discounting Task,2024.1.5,None,2024-11-18 11h17.40.218195 +0530,
49,60,89,3,4,25,4,32.65344829999958,,32.64149899999029,32.65344829999958,33.653746600000886,33.653746600000886,33.990372500004014,l,0.33326820001821034,None,33.653746600000886,437829,001,2024-11-18_11h17.35.035,Delay Discounting Task,2024.1.5,None,2024-11-18 11h17.40.218195 +0530,
27,50,21,3,5,26,2,34.003352800005814,,33.99122110000462,34.003352800005814,35.003433600009885,35.003433600009885,35.08814420000999,t,0.07781300001079217,None,35.003433600009885,437829,001,2024-11-18_11h17.35.035,Delay Discounting Task,2024.1.5,None,2024-11-18 11h17.40.218195 +0530,
40,55,62,3,6,27,3,35.10312280000653,,35.08878389999154,35.10312280000653,36.103351500001736,36.103351500001736,36.455317100015236,l,0.3482709999952931,None,36.103351500001736,437829,001,2024-11-18_11h17.35.035,Delay Discounting Task,2024.1.5,None,2024-11-18 11h17.40.218195 +0530,
27,50,21,4,0,28,2,36.469527000008384,,36.45609930000501,36.469527000008384,37.46945179998875,37.46945179998875,37.92183420000947,l,0.4481108000036329,None,37.46945179998875,437829,001,2024-11-18_11h17.35.035,Delay Discounting Task,2024.1.5,None,2024-11-18 11h17.40.218195 +0530,
67,75,119,4,1,29,5,37.93563729999005,,37.92318690000684,37.93563729999005,38.935735500010196,38.935735500010196,39.15495960001135,t,0.2152032999729272,None,38.935735500010196,437829,001,2024-11-18_11h17.35.035,Delay Discounting Task,2024.1.5,None,2024-11-18 11h17.40.218195 +0530,
78,80,162,4,2,30,6,39.16900409999653,,39.155932399997255,39.16900409999653,40.16914050001651,40.16914050001651,40.205520999996224,l,0.019221700000343844,None,40.16914050001651,437829,001,2024-11-18_11h17.35.035,Delay Discounting Task,2024.1.5,None,2024-11-18 11h17.40.218195 +0530,
40,55,62,4,3,31,3,40.21879800001625,,40.20719570000074,40.21879800001625,41.21880040000542,41.21880040000542,43.287324600009015,l,2.0600486999901477,None,41.21880040000542,437829,001,2024-11-18_11h17.35.035,Delay Discounting Task,2024.1.5,None,2024-11-18 11h17.40.218195 +0530,
49,60,89,4,4,32,4,43.30143710001721,,43.28820350000751,43.30143710001721,44.30172980000498,44.30172980000498,45.537728600000264,l,1.2214111000066623,None,44.30172980000498,437829,001,2024-11-18_11h17.35.035,Delay Discounting Task,2024.1.5,None,2024-11-18 11h17.40.218195 +0530,
11,30,7,4,5,33,0,45.55081899999641,,45.53921429999173,45.55081899999641,46.551145500008715,46.551145500008715,47.1860161999939,t,0.620333800005028,None,46.551145500008715,437829,001,2024-11-18_11h17.35.035,Delay Discounting Task,2024.1.5,None,2024-11-18 11h17.40.218195 +0530,
15,35,13,4,6,34,1,47.200551199988695,,47.18685759999789,47.200551199988695,48.200900199997704,48.200900199997704,48.619684300007066,l,0.4136722999974154,None,48.200900199997704,437829,001,2024-11-18_11h17.35.035,Delay Discounting Task,2024.1.5,None,2024-11-18 11h17.40.218195 +0530,
11,30,7,5,0,35,0,48.63367109998944,,48.62055039999541,48.63367109998944,49.63362320000306,49.63362320000306,50.98726439999882,l,1.3504523999872617,None,49.63362320000306,437829,001,2024-11-18_11h17.35.035,Delay Discounting Task,2024.1.5,None,2024-11-18 11h17.40.218195 +0530,
49,60,89,5,1,36,4,50.99978330000886,,50.98822719999589,50.99978330000886,51.999919599998975,51.999919599998975,53.152684300002875,l,1.1471908999956213,None,51.999919599998975,437829,001,2024-11-18_11h17.35.035,Delay Discounting Task,2024.1.5,None,2024-11-18 11h17.40.218195 +0530,
15,35,13,5,2,37,1,53.165953799994895,,53.15371949999826,53.165953799994895,54.16533089999575,54.16533089999575,54.935125499992864,l,0.7614904999791179,None,54.16533089999575,437829,001,2024-11-18_11h17.35.035,Delay Discounting Task,2024.1.5,None,2024-11-18 11h17.40.218195 +0530,
67,75,119,5,3,38,5,54.94898000001558,,54.9359892999928,54.94898000001558,55.94922380000935,55.94922380000935,56.90167839999776,l,0.934573000005912,None,55.94922380000935,437829,001,2024-11-18_11h17.35.035,Delay Discounting Task,2024.1.5,None,2024-11-18 11h17.40.218195 +0530,
27,50,21,5,4,39,2,56.914918299997225,,56.90338979999069,56.914918299997225,57.91522620001342,57.91522620001342,59.05105129998992,l,1.1267280000029132,None,57.91522620001342,437829,001,2024-11-18_11h17.35.035,Delay Discounting Task,2024.1.5,None,2024-11-18 11h17.40.218195 +0530,
40,55,62,5,5,40,3,59.06460519999382,,59.052132700016955,59.06460519999382,60.06457180000143,60.06457180000143,60.68337670000619,l,0.601492399990093,None,60.06457180000143,437829,001,2024-11-18_11h17.35.035,Delay Discounting Task,2024.1.5,None,2024-11-18 11h17.40.218195 +0530,
78,80,162,5,6,41,6,60.69773489999352,,60.68424659999437,60.69773489999352,61.69759719999274,61.69759719999274,63.5003616999893,l,1.796147999993991,None,61.69759719999274,437829,001,2024-11-18_11h17.35.035,Delay Discounting Task,2024.1.5,None,2024-11-18 11h17.40.218195 +0530,
78,80,162,6,0,42,6,63.51389810000546,,63.50132300000405,63.51389810000546,64.5136649000051,64.5136649000051,64.86697750000167,t,0.34986960000242107,None,64.5136649000051,437829,001,2024-11-18_11h17.35.035,Delay Discounting Task,2024.1.5,None,2024-11-18 11h17.40.218195 +0530,
15,35,13,6,1,43,1,64.87997199999518,,64.86782429998857,64.87997199999518,65.88042750000022,65.88042750000022,65.99912150000455,l,0.10580389999086037,None,65.88042750000022,437829,001,2024-11-18_11h17.35.035,Delay Discounting Task,2024.1.5,None,2024-11-18 11h17.40.218195 +0530,
11,30,7,6,2,44,0,66.01379570001154,,66.00000010000076,66.01379570001154,67.01323469998897,67.01323469998897,67.19975679999334,l,0.17083590000402182,None,67.01323469998897,437829,001,2024-11-18_11h17.35.035,Delay Discounting Task,2024.1.5,None,2024-11-18 11h17.40.218195 +0530,
27,50,21,6,3,45,2,67.21281620001537,,67.20150920000742,67.21281620001537,68.21293889998924,68.21293889998924,69.18269770001643,t,0.9560911000007764,None,68.21293889998924,437829,001,2024-11-18_11h17.35.035,Delay Discounting Task,2024.1.5,None,2024-11-18 11h17.40.218195 +0530,
40,55,62,6,4,46,3,69.19581549998838,,69.18385890001082,69.19581549998838,70.19605110000703,70.19605110000703,70.81582270000945,t,0.6017656000040006,None,70.19605110000703,437829,001,2024-11-18_11h17.35.035,Delay Discounting Task,2024.1.5,None,2024-11-18 11h17.40.218195 +0530,
49,60,89,6,5,47,4,70.82888509999611,,70.81699859999935,70.82888509999611,71.82905860000756,71.82905860000756,72.63228240000899,t,0.7981945000065025,None,71.82905860000756,437829,001,2024-11-18_11h17.35.035,Delay Discounting Task,2024.1.5,None,2024-11-18 11h17.40.218195 +0530,
67,75,119,6,6,48,5,72.64506179999444,,72.6339804000163,72.64506179999444,73.64530730000115,73.64530730000115,75.36400249999133,t,1.714384599996265,None,73.64530730000115,437829,001,2024-11-18_11h17.35.035,Delay Discounting Task,2024.1.5,None,2024-11-18 11h17.40.218195 +0530,
15,35,13,7,0,49,1,75.37788559999899,,75.36489490000531,75.37788559999899,76.3780059000128,76.3780059000128,77.29752500000177,t,0.9167462000041269,None,76.3780059000128,437829,001,2024-11-18_11h17.35.035,Delay Discounting Task,2024.1.5,None,2024-11-18 11h17.40.218195 +0530,
11,30,7,7,1,50,0,77.3106301999942,,77.29857700000866,77.3106301999942,78.31109860001015,78.31109860001015,78.39703399999416,l,0.07548489997861907,None,78.31109860001015,437829,001,2024-11-18_11h17.35.035,Delay Discounting Task,2024.1.5,None,2024-11-18 11h17.40.218195 +0530,
40,55,62,7,2,51,3,78.41065649999655,,78.39854480000213,78.41065649999655,79.4104110999906,79.4104110999906,79.42841439999756,l,0.009075999987544492,None,79.4104110999906,437829,001,2024-11-18_11h17.35.035,Delay Discounting Task,2024.1.5,None,2024-11-18 11h17.40.218195 +0530,
49,60,89,7,3,52,4,79.44372670000303,,79.42944700000226,79.44372670000303,80.44381830000202,80.44381830000202,81.69572270000936,l,1.2355415999772958,None,80.44381830000202,437829,001,2024-11-18_11h17.35.035,Delay Discounting Task,2024.1.5,None,2024-11-18 11h17.40.218195 +0530,
67,75,119,7,4,53,5,81.7097039000073,,81.69682780001312,81.7097039000073,82.71002769999905,82.71002769999905,83.71125510000275,l,0.9931540999969002,None,82.71002769999905,437829,001,2024-11-18_11h17.35.035,Delay Discounting Task,2024.1.5,None,2024-11-18 11h17.40.218195 +0530,
27,50,21,7,5,54,2,83.7261708000151,,83.71229150000727,83.7261708000151,84.72650250000879,84.72650250000879,85.17727400001604,l,0.43498610000824556,None,84.72650250000879,437829,001,2024-11-18_11h17.35.035,Delay Discounting Task,2024.1.5,None,2024-11-18 11h17.40.218195 +0530,
78,80,162,7,6,55,6,85.19261950001237,,85.1779993000091,85.19261950001237,86.1925368999946,86.1925368999946,86.64592099998845,t,0.4345128000131808,None,86.1925368999946,437829,001,2024-11-18_11h17.35.035,Delay Discounting Task,2024.1.5,None,2024-11-18 11h17.40.218195 +0530,
27,50,21,8,0,56,2,86.65887959999964,,86.64692009999999,86.65887959999964,87.65876029999345,87.65876029999345,87.96107240000856,t,0.285769199981587,None,87.65876029999345,437829,001,2024-11-18_11h17.35.035,Delay Discounting Task,2024.1.5,None,2024-11-18 11h17.40.218195 +0530,
78,80,162,8,1,57,6,87.97528499999316,,87.96275189999142,87.97528499999316,88.97539639999741,88.97539639999741,89.3630797000078,l,0.38384949997998774,None,88.97539639999741,437829,001,2024-11-18_11h17.35.035,Delay Discounting Task,2024.1.5,None,2024-11-18 11h17.40.218195 +0530,
11,30,7,8,2,58,0,89.37491040001623,,89.36424830000033,89.37491040001623,90.37517280000611,90.37517280000611,90.69478200000594,t,0.30470199999399483,None,90.37517280000611,437829,001,2024-11-18_11h17.35.035,Delay Discounting Task,2024.1.5,None,2024-11-18 11h17.40.218195 +0530,
40,55,62,8,3,59,3,90.70781849999912,,90.69587150000734,90.70781849999912,91.70808360000956,91.70808360000956,91.81103800001438,t,0.09524090000195429,None,91.70808360000956,437829,001,2024-11-18_11h17.35.035,Delay Discounting Task,2024.1.5,None,2024-11-18 11h17.40.218195 +0530,
15,35,13,8,4,60,1,91.8244013999938,,91.81205840001348,91.8244013999938,92.82474420001381,92.82474420001381,92.84327030001441,t,0.010524599987547845,None,92.82474420001381,437829,001,2024-11-18_11h17.35.035,Delay Discounting Task,2024.1.5,None,2024-11-18 11h17.40.218195 +0530,
49,60,89,8,5,61,4,92.85752119999961,,92.84417980001308,92.85752119999961,93.8575897999981,93.8575897999981,94.14284039998893,t,0.274456499988446,None,93.8575897999981,437829,001,2024-11-18_11h17.35.035,Delay Discounting Task,2024.1.5,None,2024-11-18 11h17.40.218195 +0530,
67,75,119,8,6,62,5,94.15736430001562,,94.1439209000091,94.15736430001562,95.15746089999448,95.15746089999448,95.1939476999978,l,0.024258799996459857,None,95.15746089999448,437829,001,2024-11-18_11h17.35.035,Delay Discounting Task,2024.1.5,None,2024-11-18 11h17.40.218195 +0530,
11,30,7,9,0,63,0,95.20701050001662,,95.19515089999186,95.20701050001662,96.20723520001047,96.20723520001047,96.35909380001249,t,0.1347005999996327,None,96.20723520001047,437829,001,2024-11-18_11h17.35.035,Delay Discounting Task,2024.1.5,None,2024-11-18 11h17.40.218195 +0530,
15,35,13,9,1,64,1,96.37372130001313,,96.35993740000413,96.37372130001313,97.3737625000067,97.3737625000067,97.67634420000832,l,0.2878934000036679,None,97.3737625000067,437829,001,2024-11-18_11h17.35.035,Delay Discounting Task,2024.1.5,None,2024-11-18 11h17.40.218195 +0530,
27,50,21,9,2,65,2,97.68985980001162,,97.67737680001301,97.68985980001162,98.69001049999497,98.69001049999497,99.54233130000648,t,0.839785899996059,None,98.69001049999497,437829,001,2024-11-18_11h17.35.035,Delay Discounting Task,2024.1.5,None,2024-11-18 11h17.40.218195 +0530,
67,75,119,9,3,66,5,99.55614210001659,,99.54330469999695,99.55614210001659,100.55610449999222,100.55610449999222,100.8077934999892,l,0.23462910001398996,None,100.55610449999222,437829,001,2024-11-18_11h17.35.035,Delay Discounting Task,2024.1.5,None,2024-11-18 11h17.40.218195 +0530,
49,60,89,9,4,67,4,100.82262230000924,,100.80864639999345,100.82262230000924,101.82252740001422,101.82252740001422,102.07613580001635,l,0.24929619999602437,None,101.82252740001422,437829,001,2024-11-18_11h17.35.035,Delay Discounting Task,2024.1.5,None,2024-11-18 11h17.40.218195 +0530,
40,55,62,9,5,68,3,102.0888500000001,,102.07714269999997,102.0888500000001,103.08912019999116,103.08912019999116,103.57557720001205,t,0.4701838000037242,None,103.08912019999116,437829,001,2024-11-18_11h17.35.035,Delay Discounting Task,2024.1.5,None,2024-11-18 11h17.40.218195 +0530,
78,80,162,9,6,69,6,103.58850539999548,,103.57689960001153,103.58850539999548,104.58879780001007,104.58879780001007,105.40708559998893,t,0.8096748999960255,None,104.58879780001007,437829,001,2024-11-18_11h17.35.035,Delay Discounting Task,2024.1.5,None,2024-11-18 11h17.40.218195 +0530,
78,80,162,10,0,70,6,105.42181090000668,,105.40823940001428,105.42181090000668,106.42162129998906,106.42162129998906,106.90702499999315,l,0.48118659999454394,None,106.42162129998906,437829,001,2024-11-18_11h17.35.035,Delay Discounting Task,2024.1.5,None,2024-11-18 11h17.40.218195 +0530,
49,60,89,10,1,71,4,106.92124540000805,,106.90793590000249,106.92124540000805,107.92133559999638,107.92133559999638,109.94062909999047,l,2.0146683000202756,None,107.92133559999638,437829,001,2024-11-18_11h17.35.035,Delay Discounting Task,2024.1.5,None,2024-11-18 11h17.40.218195 +0530,
40,55,62,10,2,72,3,109.95384440000635,,109.94234380000853,109.95384440000635,110.95348009999725,110.95348009999725,111.07144020000123,t,0.11200190000818111,None,110.95348009999725,437829,001,2024-11-18_11h17.35.035,Delay Discounting Task,2024.1.5,None,2024-11-18 11h17.40.218195 +0530,
11,30,7,10,3,73,0,111.08690080000088,,111.07229300000472,111.08690080000088,112.08722290000878,112.08722290000878,112.47140740000759,t,0.37428089999593794,None,112.08722290000878,437829,001,2024-11-18_11h17.35.035,Delay Discounting Task,2024.1.5,None,2024-11-18 11h17.40.218195 +0530,
27,50,21,10,4,74,2,112.48633580000023,,112.4722705000022,112.48633580000023,113.48678959999233,113.48678959999233,114.22258800000418,t,0.7301986999809742,None,113.48678959999233,437829,001,2024-11-18_11h17.35.035,Delay Discounting Task,2024.1.5,None,2024-11-18 11h17.40.218195 +0530,
67,75,119,10,5,75,5,114.23627230001148,,114.22379670001101,114.23627230001148,115.23645419999957,115.23645419999957,115.62244680000003,l,0.38080519999493845,None,115.23645419999957,437829,001,2024-11-18_11h17.35.035,Delay Discounting Task,2024.1.5,None,2024-11-18 11h17.40.218195 +0530,
15,35,13,10,6,76,1,115.63597689999733,,115.62358000001404,115.63597689999733,116.63627389998874,116.63627389998874,117.12120029999642,l,0.47873480000998825,None,116.63627389998874,437829,001,2024-11-18_11h17.35.035,Delay Discounting Task,2024.1.5,None,2024-11-18 11h17.40.218195 +0530,
40,55,62,11,0,77,3,117.13562630000524,,117.12220220000017,117.13562630000524,118.13562469999306,118.13562469999306,118.5055691000016,t,0.3677218000229914,None,118.13562469999306,437829,001,2024-11-18_11h17.35.035,Delay Discounting Task,2024.1.5,None,2024-11-18 11h17.40.218195 +0530,
11,30,7,11,1,78,0,118.51865869999165,,118.50654100000975,118.51865869999165,119.51919059999636,119.51919059999636,119.68898760000593,t,0.1551445000222884,None,119.51919059999636,437829,001,2024-11-18_11h17.35.035,Delay Discounting Task,2024.1.5,None,2024-11-18 11h17.40.218195 +0530,
49,60,89,11,2,79,4,119.70184759999393,,119.68995379999978,119.70184759999393,120.70173619998968,120.70173619998968,120.83843979999074,t,0.12317819998133928,None,120.70173619998968,437829,001,2024-11-18_11h17.35.035,Delay Discounting Task,2024.1.5,None,2024-11-18 11h17.40.218195 +0530,
78,80,162,11,3,80,6,120.85164609999629,,120.83958619998884,120.85164609999629,121.85174240000197,121.85174240000197,122.05488330000662,l,0.18951570001081564,None,121.85174240000197,437829,001,2024-11-18_11h17.35.035,Delay Discounting Task,2024.1.5,None,2024-11-18 11h17.40.218195 +0530,
27,50,21,11,4,81,2,122.06807989999652,,122.05643039999995,122.06807989999652,123.06818570001633,123.06818570001633,123.32111019999138,t,0.24873039999511093,None,123.06818570001633,437829,001,2024-11-18_11h17.35.035,Delay Discounting Task,2024.1.5,None,2024-11-18 11h17.40.218195 +0530,
67,75,119,11,5,82,5,123.3344228999922,,123.32211370000732,123.3344228999922,124.33456250000745,124.33456250000745,124.38784350000788,t,0.04869099997449666,None,124.33456250000745,437829,001,2024-11-18_11h17.35.035,Delay Discounting Task,2024.1.5,None,2024-11-18 11h17.40.218195 +0530,
15,35,13,11,6,83,1,124.40085060001002,,124.38903809999465,124.40085060001002,125.40089829999488,125.40089829999488,125.70314070000313,l,0.28615430000354536,None,125.40089829999488,437829,001,2024-11-18_11h17.35.035,Delay Discounting Task,2024.1.5,None,2024-11-18 11h17.40.218195 +0530,
78,80,162,12,0,84,6,125.71742960001575,,125.70403769999393,125.71742960001575,126.71754250000231,126.71754250000231,127.0192706999951,t,0.29576219999580644,None,126.71754250000231,437829,001,2024-11-18_11h17.35.035,Delay Discounting Task,2024.1.5,None,2024-11-18 11h17.40.218195 +0530,
67,75,119,12,1,85,5,127.03350079999655,,127.02005409999401,127.03350079999655,128.03368079999927,128.03368079999927,128.3862926000147,l,0.33485069999005646,None,128.03368079999927,437829,001,2024-11-18_11h17.35.035,Delay Discounting Task,2024.1.5,None,2024-11-18 11h17.40.218195 +0530,
49,60,89,12,2,86,4,128.40012780000689,,128.38796670001466,128.40012780000689,129.3996662000136,129.3996662000136,129.6184281000169,t,0.21359559998381883,None,129.3996662000136,437829,001,2024-11-18_11h17.35.035,Delay Discounting Task,2024.1.5,None,2024-11-18 11h17.40.218195 +0530,
40,55,62,12,3,87,3,129.63305219999165,,129.61930729998858,129.63305219999165,130.63319170000614,130.63319170000614,130.88533879999886,l,0.24692740000318736,None,130.63319170000614,437829,001,2024-11-18_11h17.35.035,Delay Discounting Task,2024.1.5,None,2024-11-18 11h17.40.218195 +0530,
11,30,7,12,4,88,0,130.8991958000115,,130.88616930000717,130.8991958000115,131.89947100001154,131.89947100001154,131.95267269999022,l,0.04103860000032,None,131.89947100001154,437829,001,2024-11-18_11h17.35.035,Delay Discounting Task,2024.1.5,None,2024-11-18 11h17.40.218195 +0530,
15,35,13,12,5,89,1,131.96578689999296,,131.95409559999825,131.96578689999296,132.9660361999995,132.9660361999995,133.1020039000141,l,0.13190499998745508,None,132.9660361999995,437829,001,2024-11-18_11h17.35.035,Delay Discounting Task,2024.1.5,None,2024-11-18 11h17.40.218195 +0530,
27,50,21,12,6,90,2,133.11563400001614,,133.10369859999628,133.11563400001614,134.11577179998858,134.11577179998858,134.4676066999964,t,0.34191819999250583,None,134.11577179998858,437829,001,2024-11-18_11h17.35.035,Delay Discounting Task,2024.1.5,None,2024-11-18 11h17.40.218195 +0530,
27,50,21,13,0,91,2,134.4825039000134,,134.46850829999312,134.4825039000134,135.48171809999621,135.48171809999621,135.6181184000161,l,0.12327590002678335,None,135.48171809999621,437829,001,2024-11-18_11h17.35.035,Delay Discounting Task,2024.1.5,None,2024-11-18 11h17.40.218195 +0530,
40,55,62,13,1,92,3,135.63186729999143,,135.61908460000996,135.63186729999143,136.63196150001022,136.63196150001022,136.71714240001165,l,0.07418509997660294,None,136.63196150001022,437829,001,2024-11-18_11h17.35.035,Delay Discounting Task,2024.1.5,None,2024-11-18 11h17.40.218195 +0530,
67,75,119,13,2,93,5,136.73141110001598,,136.71809820001363,136.73141110001598,137.73173170001246,137.73173170001246,137.76710580001236,t,0.018776900018565357,None,137.73173170001246,437829,001,2024-11-18_11h17.35.035,Delay Discounting Task,2024.1.5,None,2024-11-18 11h17.40.218195 +0530,
49,60,89,13,3,94,4,137.78119549999246,,137.76796070000273,137.78119549999246,138.78165399999125,138.78165399999125,139.0174490000063,t,0.21852530000614934,None,138.78165399999125,437829,001,2024-11-18_11h17.35.035,Delay Discounting Task,2024.1.5,None,2024-11-18 11h17.40.218195 +0530,
78,80,162,13,4,95,6,139.03109959998983,,139.0188768999942,139.03109959998983,140.03135989999282,140.03135989999282,140.06640060001519,t,0.018897600006312132,None,140.03135989999282,437829,001,2024-11-18_11h17.35.035,Delay Discounting Task,2024.1.5,None,2024-11-18 11h17.40.218195 +0530,
11,30,7,13,5,96,0,140.0807720000157,,140.0672057000047,140.0807720000157,141.08074760000454,141.08074760000454,141.11689090001164,l,0.03115369999432005,None,141.08074760000454,437829,001,2024-11-18_11h17.35.035,Delay Discounting Task,2024.1.5,None,2024-11-18 11h17.40.218195 +0530,
15,35,13,13,6,97,1,141.13068840000778,,141.11778900001082,141.13068840000778,142.13091740000527,142.13091740000527,142.38301499999943,t,0.24426810001023114,None,142.13091740000527,437829,001,2024-11-18_11h17.35.035,Delay Discounting Task,2024.1.5,None,2024-11-18 11h17.40.218195 +0530,
